[
    {
        "rt": 1218,
        "stimulus": "<img src=\"/uploads/source_9b426cc1620b9e6c2d8126f590c459fe/2_lake_nback_s/img/inst.png\" >",
        "button_pressed": "0",
        "trial_type": "html-button-response",
        "trial_index": 0,
        "time_elapsed": 1220,
        "internal_node_id": "0.0-0.0",
        "correct_answer": null,
        "choices": [
            {
                "stimulusType": "image",
                "identifier": "I11",
                "filePath": "img/START.png",
                "button": false
            }
        ]
    },
    {
        "rt": null,
        "stimulus": "<p style=\"font-size:10px;\">+</p>",
        "key_press": null,
        "trial_type": "html-keyboard-response",
        "trial_index": 1,
        "time_elapsed": 3727,
        "internal_node_id": "0.0-1.0",
        "correct_answer": null,
        "choices": null
    },
    {
        "rt": null,
        "stimulus": "<img src=\"/uploads/source_9b426cc1620b9e6c2d8126f590c459fe/2_lake_nback_s/img/F3.png\" >",
        "button_pressed": null,
        "trial_type": "html-button-response",
        "trial_index": 2,
        "time_elapsed": 4229,
        "internal_node_id": "0.0-2.0",
        "correct_answer": null,
        "choices": [
            {
                "stimulusType": "text",
                "identifier": "s1",
                "content": "X",
                "fontSize": 10,
                "fontColor": null
            },
            {
                "stimulusType": "text",
                "identifier": "s2",
                "content": "0",
                "fontSize": 10,
                "fontColor": null
            }
        ]
    },
    {
        "rt": null,
        "stimulus": "<p style=\"font-size:10px;\">+</p>",
        "key_press": null,
        "trial_type": "html-keyboard-response",
        "trial_index": 3,
        "time_elapsed": 6732,
        "internal_node_id": "0.0-3.0",
        "correct_answer": null,
        "choices": null
    },
    {
        "rt": null,
        "stimulus": "<img src=\"/uploads/source_9b426cc1620b9e6c2d8126f590c459fe/2_lake_nback_s/img/F6.png\" >",
        "button_pressed": null,
        "trial_type": "html-button-response",
        "trial_index": 4,
        "time_elapsed": 7234,
        "internal_node_id": "0.0-4.0",
        "correct_answer": null,
        "choices": [
            {
                "stimulusType": "text",
                "identifier": "s1",
                "content": "X",
                "fontSize": 10,
                "fontColor": null
            },
            {
                "stimulusType": "text",
                "identifier": "s2",
                "content": "0",
                "fontSize": 10,
                "fontColor": null
            }
        ]
    },
    {
        "rt": 77,
        "stimulus": "<p style=\"font-size:10px;\">+</p>",
        "key_press": 32,
        "trial_type": "html-keyboard-response",
        "trial_index": 5,
        "time_elapsed": 7312,
        "internal_node_id": "0.0-5.0",
        "correct_answer": null,
        "choices": null
    },
    {
        "rt": null,
        "stimulus": "<img src=\"/uploads/source_9b426cc1620b9e6c2d8126f590c459fe/2_lake_nback_s/img/F2.png\" >",
        "button_pressed": null,
        "trial_type": "html-button-response",
        "trial_index": 6,
        "time_elapsed": 7815,
        "internal_node_id": "0.0-6.0",
        "correct_answer": null,
        "choices": [
            {
                "stimulusType": "text",
                "identifier": "s1",
                "content": "X",
                "fontSize": 10,
                "fontColor": null
            },
            {
                "stimulusType": "text",
                "identifier": "s2",
                "content": "0",
                "fontSize": 10,
                "fontColor": null
            }
        ]
    },
    {
        "rt": 181.0000000000009,
        "stimulus": "<p style=\"font-size:10px;\">+</p>",
        "key_press": 32,
        "trial_type": "html-keyboard-response",
        "trial_index": 7,
        "time_elapsed": 7996,
        "internal_node_id": "0.0-7.0",
        "correct_answer": null,
        "choices": null
    },
    {
        "rt": null,
        "stimulus": "<img src=\"/uploads/source_9b426cc1620b9e6c2d8126f590c459fe/2_lake_nback_s/img/F2.png\" >",
        "button_pressed": null,
        "trial_type": "html-button-response",
        "trial_index": 8,
        "time_elapsed": 8499,
        "internal_node_id": "0.0-8.0",
        "correct_answer": null,
        "choices": [
            {
                "stimulusType": "text",
                "identifier": "s1",
                "content": "X",
                "fontSize": 10,
                "fontColor": null
            },
            {
                "stimulusType": "text",
                "identifier": "s2",
                "content": "0",
                "fontSize": 10,
                "fontColor": null
            }
        ]
    },
    {
        "rt": 50.00000000000182,
        "stimulus": "<p style=\"font-size:10px;\">+</p>",
        "key_press": 32,
        "trial_type": "html-keyboard-response",
        "trial_index": 9,
        "time_elapsed": 8550,
        "internal_node_id": "0.0-9.0",
        "correct_answer": null,
        "choices": null
    },
    {
        "rt": null,
        "stimulus": "<img src=\"/uploads/source_9b426cc1620b9e6c2d8126f590c459fe/2_lake_nback_s/img/F5.png\" >",
        "button_pressed": null,
        "trial_type": "html-button-response",
        "trial_index": 10,
        "time_elapsed": 9052,
        "internal_node_id": "0.0-10.0",
        "correct_answer": null,
        "choices": [
            {
                "stimulusType": "text",
                "identifier": "s1",
                "content": "X",
                "fontSize": 10,
                "fontColor": null
            },
            {
                "stimulusType": "text",
                "identifier": "s2",
                "content": "0",
                "fontSize": 10,
                "fontColor": null
            }
        ]
    },
    {
        "rt": null,
        "stimulus": "<p style=\"font-size:10px;\">+</p>",
        "key_press": null,
        "trial_type": "html-keyboard-response",
        "trial_index": 11,
        "time_elapsed": 11555,
        "internal_node_id": "0.0-11.0",
        "correct_answer": null,
        "choices": null
    },
    {
        "rt": null,
        "stimulus": "<img src=\"/uploads/source_9b426cc1620b9e6c2d8126f590c459fe/2_lake_nback_s/img/F7.png\" >",
        "button_pressed": null,
        "trial_type": "html-button-response",
        "trial_index": 12,
        "time_elapsed": 12057,
        "internal_node_id": "0.0-12.0",
        "correct_answer": null,
        "choices": [
            {
                "stimulusType": "text",
                "identifier": "s1",
                "content": "X",
                "fontSize": 10,
                "fontColor": null
            },
            {
                "stimulusType": "text",
                "identifier": "s2",
                "content": "0",
                "fontSize": 10,
                "fontColor": null
            }
        ]
    },
    {
        "rt": null,
        "stimulus": "<p style=\"font-size:10px;\">+</p>",
        "key_press": null,
        "trial_type": "html-keyboard-response",
        "trial_index": 13,
        "time_elapsed": 14560,
        "internal_node_id": "0.0-13.0",
        "correct_answer": null,
        "choices": null
    },
    {
        "rt": null,
        "stimulus": "<img src=\"/uploads/source_9b426cc1620b9e6c2d8126f590c459fe/2_lake_nback_s/img/F7.png\" >",
        "button_pressed": null,
        "trial_type": "html-button-response",
        "trial_index": 14,
        "time_elapsed": 15062,
        "internal_node_id": "0.0-14.0",
        "correct_answer": null,
        "choices": [
            {
                "stimulusType": "text",
                "identifier": "s1",
                "content": "X",
                "fontSize": 10,
                "fontColor": null
            },
            {
                "stimulusType": "text",
                "identifier": "s2",
                "content": "0",
                "fontSize": 10,
                "fontColor": null
            }
        ]
    },
    {
        "rt": null,
        "stimulus": "<p style=\"font-size:10px;\">+</p>",
        "key_press": null,
        "trial_type": "html-keyboard-response",
        "trial_index": 15,
        "time_elapsed": 17564,
        "internal_node_id": "0.0-15.0",
        "correct_answer": null,
        "choices": null
    },
    {
        "rt": null,
        "stimulus": "<img src=\"/uploads/source_9b426cc1620b9e6c2d8126f590c459fe/2_lake_nback_s/img/F8.png\" >",
        "button_pressed": null,
        "trial_type": "html-button-response",
        "trial_index": 16,
        "time_elapsed": 18066,
        "internal_node_id": "0.0-16.0",
        "correct_answer": null,
        "choices": [
            {
                "stimulusType": "text",
                "identifier": "s1",
                "content": "X",
                "fontSize": 10,
                "fontColor": null
            },
            {
                "stimulusType": "text",
                "identifier": "s2",
                "content": "0",
                "fontSize": 10,
                "fontColor": null
            }
        ]
    },
    {
        "rt": null,
        "stimulus": "<p style=\"font-size:10px;\">+</p>",
        "key_press": null,
        "trial_type": "html-keyboard-response",
        "trial_index": 17,
        "time_elapsed": 20569,
        "internal_node_id": "0.0-17.0",
        "correct_answer": null,
        "choices": null
    },
    {
        "rt": null,
        "stimulus": "<img src=\"/uploads/source_9b426cc1620b9e6c2d8126f590c459fe/2_lake_nback_s/img/F1.png\" >",
        "button_pressed": null,
        "trial_type": "html-button-response",
        "trial_index": 18,
        "time_elapsed": 21072,
        "internal_node_id": "0.0-18.0",
        "correct_answer": null,
        "choices": [
            {
                "stimulusType": "text",
                "identifier": "s1",
                "content": "X",
                "fontSize": 10,
                "fontColor": null
            },
            {
                "stimulusType": "text",
                "identifier": "s2",
                "content": "0",
                "fontSize": 10,
                "fontColor": null
            }
        ]
    },
    {
        "rt": null,
        "stimulus": "<p style=\"font-size:10px;\">+</p>",
        "key_press": null,
        "trial_type": "html-keyboard-response",
        "trial_index": 19,
        "time_elapsed": 23574,
        "internal_node_id": "0.0-19.0",
        "correct_answer": null,
        "choices": null
    },
    {
        "rt": null,
        "stimulus": "<img src=\"/uploads/source_9b426cc1620b9e6c2d8126f590c459fe/2_lake_nback_s/img/F1.png\" >",
        "button_pressed": null,
        "trial_type": "html-button-response",
        "trial_index": 20,
        "time_elapsed": 24077,
        "internal_node_id": "0.0-20.0",
        "correct_answer": null,
        "choices": [
            {
                "stimulusType": "text",
                "identifier": "s1",
                "content": "X",
                "fontSize": 10,
                "fontColor": null
            },
            {
                "stimulusType": "text",
                "identifier": "s2",
                "content": "0",
                "fontSize": 10,
                "fontColor": null
            }
        ]
    },
    {
        "rt": null,
        "stimulus": "<p style=\"font-size:10px;\">+</p>",
        "key_press": null,
        "trial_type": "html-keyboard-response",
        "trial_index": 21,
        "time_elapsed": 26580,
        "internal_node_id": "0.0-21.0",
        "correct_answer": null,
        "choices": null
    },
    {
        "rt": null,
        "stimulus": "<img src=\"/uploads/source_9b426cc1620b9e6c2d8126f590c459fe/2_lake_nback_s/img/F6.png\" >",
        "button_pressed": null,
        "trial_type": "html-button-response",
        "trial_index": 22,
        "time_elapsed": 27083,
        "internal_node_id": "0.0-22.0",
        "correct_answer": null,
        "choices": [
            {
                "stimulusType": "text",
                "identifier": "s1",
                "content": "X",
                "fontSize": 10,
                "fontColor": null
            },
            {
                "stimulusType": "text",
                "identifier": "s2",
                "content": "0",
                "fontSize": 10,
                "fontColor": null
            }
        ]
    },
    {
        "rt": null,
        "stimulus": "<p style=\"font-size:10px;\">+</p>",
        "key_press": null,
        "trial_type": "html-keyboard-response",
        "trial_index": 23,
        "time_elapsed": 29585,
        "internal_node_id": "0.0-23.0",
        "correct_answer": null,
        "choices": null
    },
    {
        "rt": null,
        "stimulus": "<img src=\"/uploads/source_9b426cc1620b9e6c2d8126f590c459fe/2_lake_nback_s/img/F2.png\" >",
        "button_pressed": null,
        "trial_type": "html-button-response",
        "trial_index": 24,
        "time_elapsed": 30386,
        "internal_node_id": "0.0-24.0",
        "correct_answer": null,
        "choices": [
            {
                "stimulusType": "text",
                "identifier": "s1",
                "content": "X",
                "fontSize": 10,
                "fontColor": null
            },
            {
                "stimulusType": "text",
                "identifier": "s2",
                "content": "0",
                "fontSize": 10,
                "fontColor": null
            }
        ]
    },
    {
        "rt": null,
        "stimulus": "<p style=\"font-size:10px;\">+</p>",
        "key_press": null,
        "trial_type": "html-keyboard-response",
        "trial_index": 25,
        "time_elapsed": 33013,
        "internal_node_id": "0.0-25.0",
        "correct_answer": null,
        "choices": null
    },
    {
        "rt": null,
        "stimulus": "<img src=\"/uploads/source_9b426cc1620b9e6c2d8126f590c459fe/2_lake_nback_s/img/F4.png\" >",
        "button_pressed": null,
        "trial_type": "html-button-response",
        "trial_index": 26,
        "time_elapsed": 34010,
        "internal_node_id": "0.0-26.0",
        "correct_answer": null,
        "choices": [
            {
                "stimulusType": "text",
                "identifier": "s1",
                "content": "X",
                "fontSize": 10,
                "fontColor": null
            },
            {
                "stimulusType": "text",
                "identifier": "s2",
                "content": "0",
                "fontSize": 10,
                "fontColor": null
            }
        ]
    },
    {
        "rt": null,
        "stimulus": "<p style=\"font-size:10px;\">+</p>",
        "key_press": null,
        "trial_type": "html-keyboard-response",
        "trial_index": 27,
        "time_elapsed": 38952,
        "internal_node_id": "0.0-27.0",
        "correct_answer": null,
        "choices": null
    },
    {
        "rt": null,
        "stimulus": "<img src=\"/uploads/source_9b426cc1620b9e6c2d8126f590c459fe/2_lake_nback_s/img/F4.png\" >",
        "button_pressed": null,
        "trial_type": "html-button-response",
        "trial_index": 28,
        "time_elapsed": 40806,
        "internal_node_id": "0.0-28.0",
        "correct_answer": null,
        "choices": [
            {
                "stimulusType": "text",
                "identifier": "s1",
                "content": "X",
                "fontSize": 10,
                "fontColor": null
            },
            {
                "stimulusType": "text",
                "identifier": "s2",
                "content": "0",
                "fontSize": 10,
                "fontColor": null
            }
        ]
    },
    {
        "rt": null,
        "stimulus": "<p style=\"font-size:10px;\">+</p>",
        "key_press": null,
        "trial_type": "html-keyboard-response",
        "trial_index": 29,
        "time_elapsed": 52046,
        "internal_node_id": "0.0-29.0",
        "correct_answer": null,
        "choices": null
    },
    {
        "rt": null,
        "stimulus": "<img src=\"/uploads/source_9b426cc1620b9e6c2d8126f590c459fe/2_lake_nback_s/img/F3.png\" >",
        "button_pressed": null,
        "trial_type": "html-button-response",
        "trial_index": 30,
        "time_elapsed": 52549,
        "internal_node_id": "0.0-30.0",
        "correct_answer": null,
        "choices": [
            {
                "stimulusType": "text",
                "identifier": "s1",
                "content": "X",
                "fontSize": 10,
                "fontColor": null
            },
            {
                "stimulusType": "text",
                "identifier": "s2",
                "content": "0",
                "fontSize": 10,
                "fontColor": null
            }
        ]
    },
    {
        "rt": null,
        "stimulus": "<p style=\"font-size:10px;\">+</p>",
        "key_press": null,
        "trial_type": "html-keyboard-response",
        "trial_index": 31,
        "time_elapsed": 55051,
        "internal_node_id": "0.0-31.0",
        "correct_answer": null,
        "choices": null
    },
    {
        "rt": null,
        "stimulus": "<img src=\"/uploads/source_9b426cc1620b9e6c2d8126f590c459fe/2_lake_nback_s/img/F3.png\" >",
        "button_pressed": null,
        "trial_type": "html-button-response",
        "trial_index": 32,
        "time_elapsed": 55553,
        "internal_node_id": "0.0-32.0",
        "correct_answer": null,
        "choices": [
            {
                "stimulusType": "text",
                "identifier": "s1",
                "content": "X",
                "fontSize": 10,
                "fontColor": null
            },
            {
                "stimulusType": "text",
                "identifier": "s2",
                "content": "0",
                "fontSize": 10,
                "fontColor": null
            }
        ]
    },
    {
        "rt": null,
        "stimulus": "<p style=\"font-size:10px;\">+</p>",
        "key_press": null,
        "trial_type": "html-keyboard-response",
        "trial_index": 33,
        "time_elapsed": 58056,
        "internal_node_id": "0.0-33.0",
        "correct_answer": null,
        "choices": null
    },
    {
        "rt": null,
        "stimulus": "<img src=\"/uploads/source_9b426cc1620b9e6c2d8126f590c459fe/2_lake_nback_s/img/F8.png\" >",
        "button_pressed": null,
        "trial_type": "html-button-response",
        "trial_index": 34,
        "time_elapsed": 58558,
        "internal_node_id": "0.0-34.0",
        "correct_answer": null,
        "choices": [
            {
                "stimulusType": "text",
                "identifier": "s1",
                "content": "X",
                "fontSize": 10,
                "fontColor": null
            },
            {
                "stimulusType": "text",
                "identifier": "s2",
                "content": "0",
                "fontSize": 10,
                "fontColor": null
            }
        ]
    },
    {
        "rt": null,
        "stimulus": "<p style=\"font-size:10px;\">+</p>",
        "key_press": null,
        "trial_type": "html-keyboard-response",
        "trial_index": 35,
        "time_elapsed": 61060,
        "internal_node_id": "0.0-35.0",
        "correct_answer": null,
        "choices": null
    },
    {
        "rt": null,
        "stimulus": "<img src=\"/uploads/source_9b426cc1620b9e6c2d8126f590c459fe/2_lake_nback_s/img/F5.png\" >",
        "button_pressed": null,
        "trial_type": "html-button-response",
        "trial_index": 36,
        "time_elapsed": 61562,
        "internal_node_id": "0.0-36.0",
        "correct_answer": null,
        "choices": [
            {
                "stimulusType": "text",
                "identifier": "s1",
                "content": "X",
                "fontSize": 10,
                "fontColor": null
            },
            {
                "stimulusType": "text",
                "identifier": "s2",
                "content": "0",
                "fontSize": 10,
                "fontColor": null
            }
        ]
    },
    {
        "rt": null,
        "stimulus": "<p style=\"font-size:10px;\">+</p>",
        "key_press": null,
        "trial_type": "html-keyboard-response",
        "trial_index": 37,
        "time_elapsed": 64065,
        "internal_node_id": "0.0-37.0",
        "correct_answer": null,
        "choices": null
    },
    {
        "rt": null,
        "stimulus": "<img src=\"/uploads/source_9b426cc1620b9e6c2d8126f590c459fe/2_lake_nback_s/img/F1.png\" >",
        "button_pressed": null,
        "trial_type": "html-button-response",
        "trial_index": 38,
        "time_elapsed": 64567,
        "internal_node_id": "0.0-38.0",
        "correct_answer": null,
        "choices": [
            {
                "stimulusType": "text",
                "identifier": "s1",
                "content": "X",
                "fontSize": 10,
                "fontColor": null
            },
            {
                "stimulusType": "text",
                "identifier": "s2",
                "content": "0",
                "fontSize": 10,
                "fontColor": null
            }
        ]
    },
    {
        "rt": null,
        "stimulus": "<p style=\"font-size:10px;\">+</p>",
        "key_press": null,
        "trial_type": "html-keyboard-response",
        "trial_index": 39,
        "time_elapsed": 67070,
        "internal_node_id": "0.0-39.0",
        "correct_answer": null,
        "choices": null
    },
    {
        "rt": null,
        "stimulus": "<img src=\"/uploads/source_9b426cc1620b9e6c2d8126f590c459fe/2_lake_nback_s/img/F1.png\" >",
        "button_pressed": null,
        "trial_type": "html-button-response",
        "trial_index": 40,
        "time_elapsed": 67573,
        "internal_node_id": "0.0-40.0",
        "correct_answer": null,
        "choices": [
            {
                "stimulusType": "text",
                "identifier": "s1",
                "content": "X",
                "fontSize": 10,
                "fontColor": null
            },
            {
                "stimulusType": "text",
                "identifier": "s2",
                "content": "0",
                "fontSize": 10,
                "fontColor": null
            }
        ]
    },
    {
        "rt": null,
        "stimulus": "<p style=\"font-size:10px;\">+</p>",
        "key_press": null,
        "trial_type": "html-keyboard-response",
        "trial_index": 41,
        "time_elapsed": 70075,
        "internal_node_id": "0.0-41.0",
        "correct_answer": null,
        "choices": null
    },
    {
        "rt": null,
        "stimulus": "<img src=\"/uploads/source_9b426cc1620b9e6c2d8126f590c459fe/2_lake_nback_s/img/F4.png\" >",
        "button_pressed": null,
        "trial_type": "html-button-response",
        "trial_index": 42,
        "time_elapsed": 70578,
        "internal_node_id": "0.0-42.0",
        "correct_answer": null,
        "choices": [
            {
                "stimulusType": "text",
                "identifier": "s1",
                "content": "X",
                "fontSize": 10,
                "fontColor": null
            },
            {
                "stimulusType": "text",
                "identifier": "s2",
                "content": "0",
                "fontSize": 10,
                "fontColor": null
            }
        ]
    },
    {
        "rt": 1811,
        "stimulus": "<p style=\"font-size:40px;\">수고하셨습니다. 다음 질문에 대답해 주세요.</p>",
        "button_pressed": "0",
        "trial_type": "html-button-response",
        "trial_index": 43,
        "time_elapsed": 72390,
        "internal_node_id": "0.0-43.0",
        "correct_answer": null,
        "choices": [
            {
                "stimulusType": "text",
                "identifier": "T3",
                "content": "다음",
                "fontSize": 10,
                "fontColor": null
            }
        ]
    },
    {
        "rt": 406,
        "stimulus": "<p style=\"font-size:10px;\">과제가 어려웠다</p>",
        "button_pressed": "2",
        "trial_type": "html-button-response",
        "trial_index": 44,
        "time_elapsed": 72799,
        "internal_node_id": "0.0-44.0",
        "correct_answer": null,
        "choices": [
            {
                "stimulusType": "image",
                "identifier": "I80",
                "filePath": "img/1.png",
                "button": false
            },
            {
                "stimulusType": "image",
                "identifier": "I81",
                "filePath": "img/2.png",
                "button": false
            },
            {
                "stimulusType": "image",
                "identifier": "I82",
                "filePath": "img/3.png",
                "button": false
            },
            {
                "stimulusType": "image",
                "identifier": "I83",
                "filePath": "img/4.png",
                "button": false
            },
            {
                "stimulusType": "image",
                "identifier": "I84",
                "filePath": "img/5.png",
                "button": false
            }
        ]
    },
    {
        "rt": 407,
        "stimulus": "<p style=\"font-size:10px;\">과제가 재미 있었다</p>",
        "button_pressed": "2",
        "trial_type": "html-button-response",
        "trial_index": 45,
        "time_elapsed": 73207,
        "internal_node_id": "0.0-45.0",
        "correct_answer": null,
        "choices": [
            {
                "stimulusType": "image",
                "identifier": "I80",
                "filePath": "img/1.png",
                "button": false
            },
            {
                "stimulusType": "image",
                "identifier": "I81",
                "filePath": "img/2.png",
                "button": false
            },
            {
                "stimulusType": "image",
                "identifier": "I82",
                "filePath": "img/3.png",
                "button": false
            },
            {
                "stimulusType": "image",
                "identifier": "I83",
                "filePath": "img/4.png",
                "button": false
            },
            {
                "stimulusType": "image",
                "identifier": "I84",
                "filePath": "img/5.png",
                "button": false
            }
        ]
    },
    {
        "rt": 271,
        "stimulus": "<p style=\"font-size:10px;\">과제를 하는 동안 주변에 방해받지 않고 집중 할 수 있었다</p>",
        "button_pressed": "2",
        "trial_type": "html-button-response",
        "trial_index": 46,
        "time_elapsed": 73480,
        "internal_node_id": "0.0-46.0",
        "correct_answer": null,
        "choices": [
            {
                "stimulusType": "image",
                "identifier": "I80",
                "filePath": "img/1.png",
                "button": false
            },
            {
                "stimulusType": "image",
                "identifier": "I81",
                "filePath": "img/2.png",
                "button": false
            },
            {
                "stimulusType": "image",
                "identifier": "I82",
                "filePath": "img/3.png",
                "button": false
            },
            {
                "stimulusType": "image",
                "identifier": "I83",
                "filePath": "img/4.png",
                "button": false
            },
            {
                "stimulusType": "image",
                "identifier": "I84",
                "filePath": "img/5.png",
                "button": false
            }
        ]
    },
    {
        "rt": 1334,
        "stimulus": "<p style=\"font-size:40px;\">Thank you!</p>",
        "key_press": 32,
        "trial_type": "html-keyboard-response",
        "trial_index": 47,
        "time_elapsed": 74815,
        "internal_node_id": "0.0-47.0",
        "correct_answer": null,
        "choices": null
    }
]